ℹ These terms could not be mapped per the controlled terminology: "Ambul Ecg Removal", "Unscheduled 6.1", "Unscheduled 1.1", "Unscheduled 5.1", "Unscheduled 4.1", "Unscheduled 8.2", and "Unscheduled 13.1".
ℹ These terms could not be mapped per the controlled terminology: "Ambul Ecg Removal", "Unscheduled 6.1", "Unscheduled 1.1", "Unscheduled 5.1", "Unscheduled 4.1", "Unscheduled 8.2", and "Unscheduled 13.1".


=== Execution Summary ===
Date: 2026-03-25 23:19:42 
Dimensions: 850 rows x 12 columns

tibble [850 × 12] (S3: tbl_df/tbl/data.frame)
 $ STUDYID : chr [1:850] "CDISCPILOT01" "CDISCPILOT01" "CDISCPILOT01" "CDISCPILOT01" ...
 $ DOMAIN  : chr [1:850] "DS" "DS" "DS" "DS" ...
 $ USUBJID : chr [1:850] "01-701-1015" "01-701-1015" "01-701-1015" "01-701-1023" ...
 $ DSSEQ   : int [1:850] 1 2 3 1 2 3 4 1 2 3 ...
 $ DSTERM  : chr [1:850] "FINAL LAB VISIT" "PROTOCOL COMPLETED" "RANDOMIZED" "ADVERSE EVENT" ...
 $ DSDECOD : chr [1:850] "FINAL LAB VISIT" "COMPLETED" "RANDOMIZED" "ADVERSE EVENT" ...
 $ DSCAT   : chr [1:850] "OTHER EVENT" "DISPOSITION EVENT" "PROTOCOL MILESTONE" "DISPOSITION EVENT" ...
 $ VISITNUM: chr [1:850] "13" "13" "3" "5" ...
 $ VISIT   : chr [1:850] "WEEK 26" "WEEK 26" "BASELINE" "WEEK 4" ...
 $ DSDTC   : chr [1:850] "2014-07-02T11:45" "2014-07-02" "2014-01-02" "2012-09-02" ...
 $ DSSTDTC : Date[1:850], format: "2014-07-02" ...
 $ DSSTDY  : int [1:850] 182 182 1 29 29 198 1 180 180 1 ...

R version 4.4.1 (2024-06-14 ucrt)
Platform: x86_64-w64-mingw32/x64
Running under: Windows 11 x64 (build 22631)

Matrix products: default


locale:
[1] LC_COLLATE=English_United Kingdom.utf8 
[2] LC_CTYPE=English_United Kingdom.utf8   
[3] LC_MONETARY=English_United Kingdom.utf8
[4] LC_NUMERIC=C                           
[5] LC_TIME=English_United Kingdom.utf8    

time zone: Europe/Zurich
tzcode source: internal

attached base packages:
[1] stats     graphics  grDevices utils     datasets  methods  
[7] base     

other attached packages:
[1] dplyr_1.2.0           pharmaversesdtm_1.4.0
[3] ggplot2_4.0.2         pharmaverseraw_0.1.1 
[5] admiral_1.4.1         sdtm.oak_0.2.0       

loaded via a namespace (and not attached):
 [1] gtable_0.3.6       crayon_1.5.3       compiler_4.4.1    
 [4] tidyselect_1.2.1   xml2_1.5.2         stringr_1.6.0     
 [7] assertthat_0.2.1   tidyr_1.3.2        scales_1.4.0      
[10] R6_2.6.1           generics_0.1.4     admiraldev_1.4.0  
[13] knitr_1.51         tibble_3.3.1       lubridate_1.9.5   
[16] pillar_1.11.1      RColorBrewer_1.1-3 rlang_1.1.7       
[19] utf8_1.2.6         stringi_1.8.7      roxygen2_7.3.3    
[22] xfun_0.56          S7_0.2.1           pkgload_1.4.1     
[25] otel_0.2.0         timechange_0.4.0   cli_3.6.5         
[28] withr_3.0.2        magrittr_2.0.4     grid_4.4.1        
[31] rstudioapi_0.17.1  hms_1.1.4          lifecycle_1.0.5   
[34] vctrs_0.7.1        evaluate_1.0.5     glue_1.8.0        
[37] farver_2.1.2       purrr_1.2.1        tools_4.4.1       
[40] pkgconfig_2.0.3   
