  [1] "STUDYID"  "USUBJID"  "SUBJID"   "SITEID"   "COUNTRY"  "DOMAIN"   "RFSTDTC"  "RFENDTC"  "RFXSTDTC" "RFXENDTC" "RFPENDTC"
 [12] "SCRFDT"   "FRVDT"    "DTHDTC"   "DTHADY"   "DTHFL"    "LDDTHELD" "LDDTHGR1" "DTH30FL"  "DTHA30FL" "DTHDOM"   "DTHB30FL"
 [23] "REGION1"  "DMDTC"    "DMDY"     "AGE"      "AGEU"     "AGEGR1"   "SEX"      "RACE"     "RACEGR1"  "ETHNIC"   "SAFFL"   
 [34] "ARM"      "ARMCD"    "ACTARM"   "ACTARMCD" "TRT01P"   "TRT01A"   "TRTSDT"   "TRTSDTM"  "TRTSTMF"  "TRTEDT"   "TRTEDTM" 
 [45] "TRTETMF"  "EOSSTT"   "EOSDT"    "RFICDTC"  "RANDDT"   "LSTALVDT" "TRTDURD"  "DTHDT"    "DTHDTF"   "DTHCAUS"  "DTHCGR1" 
 [56] "AESEQ"    "AETERM"   "AEDECOD"  "AEBODSYS" "AEBDSYCD" "AELLT"    "AELLTCD"  "AEPTCD"   "AEHLT"    "AEHLTCD"  "AEHLGT"  
 [67] "AEHLGTCD" "AESOC"    "AESOCCD"  "AESTDTC"  "ASTDT"    "ASTDTM"   "ASTDTF"   "ASTTMF"   "AEENDTC"  "AENDT"    "AENDTM"  
 [78] "AENDTF"   "AENTMF"   "ASTDY"    "AESTDY"   "AENDY"    "AEENDY"   "ADURN"    "ADURU"    "TRTEMFL"  "AOCCIFL"  "AESER"   
 [89] "AESDTH"   "AESLIFE"  "AESHOSP"  "AESDISAB" "AESCONG"  "AESEV"    "ASEV"     "ASEVN"    "AEREL"    "AREL"     "AEACN"   
[100] "AESPID"   "AEOUT"    "AESCAN"   "AESOD"    "AEDTC"    "LDOSEDTM" "DOSEON"   "DOSEU"   

             Placebo Xanomeline High Dose  Xanomeline Low Dose 
                 281                  414                  427 

   Y 
1122 


=== Execution Summary ===
Date: 2026-03-26 18:12:15 
R version 4.4.1 (2024-06-14 ucrt)
Platform: x86_64-w64-mingw32/x64
Running under: Windows 11 x64 (build 22631)

Matrix products: default


locale:
[1] LC_COLLATE=English_United Kingdom.utf8  LC_CTYPE=English_United Kingdom.utf8    LC_MONETARY=English_United Kingdom.utf8
[4] LC_NUMERIC=C                            LC_TIME=English_United Kingdom.utf8    

time zone: Europe/Zurich
tzcode source: internal

attached base packages:
[1] stats     graphics  grDevices utils     datasets  methods   base     

other attached packages:
[1] gtsummary_2.5.0       pharmaverseadam_1.3.0 gt_1.3.0              dplyr_1.2.0          

loaded via a namespace (and not attached):
 [1] vctrs_0.7.1       cli_3.6.5         knitr_1.51        rlang_1.1.7       xfun_0.56         otel_0.2.0       
 [7] purrr_1.2.1       pkgload_1.4.1     generics_0.1.4    litedown_0.9      glue_1.8.0        markdown_2.0     
[13] htmltools_0.5.9   sass_0.4.10       evaluate_1.0.5    tibble_3.3.1      fastmap_1.2.0     lifecycle_1.0.5  
[19] compiler_4.4.1    cards_0.7.1       fs_1.6.6          pkgconfig_2.0.3   tidyr_1.3.2       rstudioapi_0.17.1
[25] digest_0.6.39     R6_2.6.1          utf8_1.2.6        tidyselect_1.2.1  pillar_1.11.1     commonmark_2.0.0 
[31] magrittr_2.0.4    tools_4.4.1       withr_3.0.2       xml2_1.5.2       


=== Visualization Summary ===
Date: 2026-03-26 18:22:42 
R version 4.4.1 (2024-06-14 ucrt)
Platform: x86_64-w64-mingw32/x64
Running under: Windows 11 x64 (build 22631)

Matrix products: default


locale:
[1] LC_COLLATE=English_United Kingdom.utf8  LC_CTYPE=English_United Kingdom.utf8    LC_MONETARY=English_United Kingdom.utf8
[4] LC_NUMERIC=C                            LC_TIME=English_United Kingdom.utf8    

time zone: Europe/Zurich
tzcode source: internal

attached base packages:
[1] stats     graphics  grDevices utils     datasets  methods   base     

other attached packages:
[1] ggplot2_4.0.2         gtsummary_2.5.0       pharmaverseadam_1.3.0 gt_1.3.0              dplyr_1.2.0          

loaded via a namespace (and not attached):
 [1] gtable_0.3.6       compiler_4.4.1     tidyselect_1.2.1   xml2_1.5.2         tidyr_1.3.2        textshaping_1.0.4 
 [7] systemfonts_1.3.1  scales_1.4.0       fastmap_1.2.0      R6_2.6.1           labeling_0.4.3     commonmark_2.0.0  
[13] cards_0.7.1        generics_0.1.4     knitr_1.51         tibble_3.3.1       RColorBrewer_1.1-3 pillar_1.11.1     
[19] rlang_1.1.7        utf8_1.2.6         litedown_0.9       xfun_0.56          S7_0.2.1           fs_1.6.6          
[25] sass_0.4.10        pkgload_1.4.1      otel_0.2.0         cli_3.6.5          withr_3.0.2        magrittr_2.0.4    
[31] digest_0.6.39      grid_4.4.1         rstudioapi_0.17.1  markdown_2.0       lifecycle_1.0.5    vctrs_0.7.1       
[37] evaluate_1.0.5     glue_1.8.0         farver_2.1.2       ragg_1.5.0         purrr_1.2.1        tools_4.4.1       
[43] pkgconfig_2.0.3    htmltools_0.5.9   
